File: LEPL1505 - Projet 4 en chimie et physique/Résultats d'expériences/TGA/TGA.txt
         Index             t        Weight            Ts            Tr
           [#]           [s]          [mg]          [°C]          [°C]
             0  0,00000e+000  1,45002e+001  2,47251e+001  2,50000e+001
             5  5,00000e+000  1,45011e+001  2,47618e+001  2,50000e+001
            10  1,00000e+001  1,45014e+001  2,47984e+001  2,50000e+001
            15  1,50000e+001  1,45013e+001  2,48389e+001  2,50000e+001
            20  2,00000e+001  1,45010e+001  2,48727e+001  2,50000e+001
            25  2,50000e+001  1,45010e+001  2,49037e+001  2,50000e+001
            30  3,00000e+001  1,45010e+001  2,49348e+001  2,50000e+001
            35  3,50000e+001  1,45010e+001  2,49658e+001  2,50000e+001
            40  4,00000e+001  1,45010e+001  2,49763e+001  2,50000e+001
            45  4,50000e+001  1,45010e+001  2,49968e+001  2,50000e+001
            50  5,00000e+001  1,45012e+001  2,50240e+001  2,50000e+001
            55  5,50000e+001  1,45016e+001  2,50472e+001  2,50000e+001
            60  6,00000e+001  1,45011e+001  2,60826e+001  2,50000e+001
            65  6,50000e+001  1,44991e+001  2,58148e+001  2,58333e+001
            70  7,00000e+001  1,45016e+001  2,65750e+001  2,66667e+001
            75  7,50000e+001  1,45061e+001  2,73588e+001  2,75000e+001
            80  8,00000e+001  1,45099e+001  2,81809e+001  2,83333e+001
            85  8,50000e+001  1,45122e+001  2,90294e+001  2,91667e+001
            90  9,00000e+001  1,45131e+001  2,98636e+001  3,00000e+001
            95  9,50000e+001  1,45130e+001  3,07286e+001  3,08333e+001
           100  1,00000e+002  1,45123e+001  3,16032e+001  3,16667e+001
           105  1,05000e+002  1,45112e+001  3,24712e+001  3,25000e+001
           110  1,10000e+002  1,45096e+001  3,33600e+001  3,33333e+001
           115  1,15000e+002  1,45078e+001  3,42619e+001  3,41667e+001
           120  1,20000e+002  1,45057e+001  3,51726e+001  3,50000e+001
           125  1,25000e+002  1,45032e+001  3,60727e+001  3,58333e+001
           130  1,30000e+002  1,45009e+001  3,69888e+001  3,66667e+001
           135  1,35000e+002  1,44983e+001  3,79109e+001  3,75000e+001
           140  1,40000e+002  1,44958e+001  3,88356e+001  3,83333e+001
           145  1,45000e+002  1,44934e+001  3,97502e+001  3,91667e+001
           150  1,50000e+002  1,44911e+001  4,06513e+001  4,00000e+001
           155  1,55000e+002  1,44888e+001  4,15746e+001  4,08333e+001
           160  1,60000e+002  1,44867e+001  4,25026e+001  4,16667e+001
           165  1,65000e+002  1,44847e+001  4,34326e+001  4,25000e+001
           170  1,70000e+002  1,44827e+001  4,43434e+001  4,33333e+001
           175  1,75000e+002  1,44807e+001  4,52678e+001  4,41667e+001
           180  1,80000e+002  1,44788e+001  4,61721e+001  4,50000e+001
           185  1,85000e+002  1,44773e+001  4,71182e+001  4,58333e+001
           190  1,90000e+002  1,44762e+001  4,80401e+001  4,66667e+001
           195  1,95000e+002  1,44748e+001  4,89655e+001  4,75000e+001
           200  2,00000e+002  1,44732e+001  4,98706e+001  4,83333e+001
           205  2,05000e+002  1,44718e+001  5,07931e+001  4,91667e+001
           210  2,10000e+002  1,44704e+001  5,17313e+001  5,00000e+001
           215  2,15000e+002  1,44691e+001  5,26211e+001  5,08333e+001
           220  2,20000e+002  1,44677e+001  5,35325e+001  5,16667e+001
           225  2,25000e+002  1,44664e+001  5,44373e+001  5,25000e+001
           230  2,30000e+002  1,44651e+001  5,53473e+001  5,33333e+001
           235  2,35000e+002  1,44639e+001  5,62595e+001  5,41667e+001
           240  2,40000e+002  1,44628e+001  5,71582e+001  5,50000e+001
           245  2,45000e+002  1,44614e+001  5,80567e+001  5,58333e+001
           250  2,50000e+002  1,44607e+001  5,89468e+001  5,66667e+001
           255  2,55000e+002  1,44598e+001  5,98599e+001  5,75000e+001
           260  2,60000e+002  1,44584e+001  6,07513e+001  5,83333e+001
           265  2,65000e+002  1,44570e+001  6,16380e+001  5,91667e+001
           270  2,70000e+002  1,44555e+001  6,25318e+001  6,00000e+001
           275  2,75000e+002  1,44541e+001  6,34275e+001  6,08333e+001
           280  2,80000e+002  1,44526e+001  6,43231e+001  6,16667e+001
           285  2,85000e+002  1,44510e+001  6,51899e+001  6,25000e+001
           290  2,90000e+002  1,44494e+001  6,61040e+001  6,33333e+001
           295  2,95000e+002  1,44478e+001  6,69858e+001  6,41667e+001
           300  3,00000e+002  1,44466e+001  6,78692e+001  6,50000e+001
           305  3,05000e+002  1,44451e+001  6,87467e+001  6,58333e+001
           310  3,10000e+002  1,44433e+001  6,96451e+001  6,66667e+001
           315  3,15000e+002  1,44414e+001  7,05355e+001  6,75000e+001
           320  3,20000e+002  1,44395e+001  7,14285e+001  6,83333e+001
           325  3,25000e+002  1,44376e+001  7,23183e+001  6,91667e+001
           330  3,30000e+002  1,44356e+001  7,32103e+001  7,00000e+001
           335  3,35000e+002  1,44336e+001  7,40911e+001  7,08333e+001
           340  3,40000e+002  1,44316e+001  7,49779e+001  7,16667e+001
           345  3,45000e+002  1,44300e+001  7,58836e+001  7,25000e+001
           350  3,50000e+002  1,44283e+001  7,67675e+001  7,33333e+001
           355  3,55000e+002  1,44267e+001  7,76510e+001  7,41667e+001
           360  3,60000e+002  1,44249e+001  7,85635e+001  7,50000e+001
           365  3,65000e+002  1,44230e+001  7,94615e+001  7,58333e+001
           370  3,70000e+002  1,44213e+001  8,03836e+001  7,66667e+001
           375  3,75000e+002  1,44196e+001  8,12842e+001  7,75000e+001
           380  3,80000e+002  1,44179e+001  8,21924e+001  7,83333e+001
           385  3,85000e+002  1,44164e+001  8,31200e+001  7,91667e+001
           390  3,90000e+002  1,44149e+001  8,40533e+001  8,00000e+001
           395  3,95000e+002  1,44136e+001  8,49655e+001  8,08333e+001
           400  4,00000e+002  1,44125e+001  8,59018e+001  8,16667e+001
           405  4,05000e+002  1,44116e+001  8,68404e+001  8,25000e+001
           410  4,10000e+002  1,44104e+001  8,77667e+001  8,33333e+001
           415  4,15000e+002  1,44093e+001  8,87067e+001  8,41667e+001
           420  4,20000e+002  1,44079e+001  8,96392e+001  8,50000e+001
           425  4,25000e+002  1,44067e+001  9,05638e+001  8,58333e+001
           430  4,30000e+002  1,44057e+001  9,15135e+001  8,66667e+001
           435  4,35000e+002  1,44045e+001  9,24513e+001  8,75000e+001
           440  4,40000e+002  1,44033e+001  9,33905e+001  8,83333e+001
           445  4,45000e+002  1,44023e+001  9,43197e+001  8,91667e+001
           450  4,50000e+002  1,44011e+001  9,52653e+001  9,00000e+001
           455  4,55000e+002  1,43998e+001  9,62045e+001  9,08333e+001
           460  4,60000e+002  1,43985e+001  9,71446e+001  9,16667e+001
           465  4,65000e+002  1,43972e+001  9,80669e+001  9,25000e+001
           470  4,70000e+002  1,43958e+001  9,90137e+001  9,33333e+001
           475  4,75000e+002  1,43942e+001  9,99480e+001  9,41667e+001
           480  4,80000e+002  1,43931e+001  1,00893e+002  9,50000e+001
           485  4,85000e+002  1,43917e+001  1,01831e+002  9,58333e+001
           490  4,90000e+002  1,43904e+001  1,02765e+002  9,66667e+001
           495  4,95000e+002  1,43890e+001  1,03706e+002  9,75000e+001
           500  5,00000e+002  1,43872e+001  1,04628e+002  9,83333e+001
           505  5,05000e+002  1,43857e+001  1,05569e+002  9,91667e+001
           510  5,10000e+002  1,43843e+001  1,06497e+002  1,00000e+002
           515  5,15000e+002  1,43832e+001  1,07433e+002  1,00833e+002
           520  5,20000e+002  1,43816e+001  1,08372e+002  1,01667e+002
           525  5,25000e+002  1,43799e+001  1,09323e+002  1,02500e+002
           530  5,30000e+002  1,43784e+001  1,10241e+002  1,03333e+002
           535  5,35000e+002  1,43775e+001  1,11173e+002  1,04167e+002
           540  5,40000e+002  1,43762e+001  1,12105e+002  1,05000e+002
           545  5,45000e+002  1,43745e+001  1,13047e+002  1,05833e+002
           550  5,50000e+002  1,43729e+001  1,13985e+002  1,06667e+002
           555  5,55000e+002  1,43712e+001  1,14923e+002  1,07500e+002
           560  5,60000e+002  1,43698e+001  1,15839e+002  1,08333e+002
           565  5,65000e+002  1,43683e+001  1,16785e+002  1,09167e+002
           570  5,70000e+002  1,43669e+001  1,17719e+002  1,10000e+002
           575  5,75000e+002  1,43655e+001  1,18649e+002  1,10833e+002
           580  5,80000e+002  1,43642e+001  1,19585e+002  1,11667e+002
           585  5,85000e+002  1,43629e+001  1,20511e+002  1,12500e+002
           590  5,90000e+002  1,43617e+001  1,21443e+002  1,13333e+002
           595  5,95000e+002  1,43602e+001  1,22370e+002  1,14167e+002
           600  6,00000e+002  1,43591e+001  1,23300e+002  1,15000e+002
           605  6,05000e+002  1,43580e+001  1,24244e+002  1,15833e+002
           610  6,10000e+002  1,43561e+001  1,25188e+002  1,16667e+002
           615  6,15000e+002  1,43546e+001  1,26124e+002  1,17500e+002
           620  6,20000e+002  1,43533e+001  1,27058e+002  1,18333e+002
           625  6,25000e+002  1,43519e+001  1,27998e+002  1,19167e+002
           630  6,30000e+002  1,43506e+001  1,28937e+002  1,20000e+002
           635  6,35000e+002  1,43493e+001  1,29882e+002  1,20833e+002
           640  6,40000e+002  1,43478e+001  1,30821e+002  1,21667e+002
           645  6,45000e+002  1,43460e+001  1,31765e+002  1,22500e+002
           650  6,50000e+002  1,43445e+001  1,32715e+002  1,23333e+002
           655  6,55000e+002  1,43430e+001  1,33651e+002  1,24167e+002
           660  6,60000e+002  1,43417e+001  1,34590e+002  1,25000e+002
           665  6,65000e+002  1,43405e+001  1,35526e+002  1,25833e+002
           670  6,70000e+002  1,43390e+001  1,36469e+002  1,26667e+002
           675  6,75000e+002  1,43374e+001  1,37415e+002  1,27500e+002
           680  6,80000e+002  1,43356e+001  1,38358e+002  1,28333e+002
           685  6,85000e+002  1,43341e+001  1,39297e+002  1,29167e+002
           690  6,90000e+002  1,43328e+001  1,40230e+002  1,30000e+002
           695  6,95000e+002  1,43312e+001  1,41181e+002  1,30833e+002
           700  7,00000e+002  1,43293e+001  1,42109e+002  1,31667e+002
           705  7,05000e+002  1,43277e+001  1,43053e+002  1,32500e+002
           710  7,10000e+002  1,43260e+001  1,44002e+002  1,33333e+002
           715  7,15000e+002  1,43247e+001  1,44935e+002  1,34167e+002
           720  7,20000e+002  1,43236e+001  1,45869e+002  1,35000e+002
           725  7,25000e+002  1,43222e+001  1,46809e+002  1,35833e+002
           730  7,30000e+002  1,43204e+001  1,47742e+002  1,36667e+002
           735  7,35000e+002  1,43191e+001  1,48690e+002  1,37500e+002
           740  7,40000e+002  1,43177e+001  1,49619e+002  1,38333e+002
           745  7,45000e+002  1,43159e+001  1,50565e+002  1,39167e+002
           750  7,50000e+002  1,43144e+001  1,51496e+002  1,40000e+002
           755  7,55000e+002  1,43132e+001  1,52441e+002  1,40833e+002
           760  7,60000e+002  1,43116e+001  1,53373e+002  1,41667e+002
           765  7,65000e+002  1,43099e+001  1,54298e+002  1,42500e+002
           770  7,70000e+002  1,43087e+001  1,55226e+002  1,43333e+002
           775  7,75000e+002  1,43075e+001  1,56167e+002  1,44167e+002
           780  7,80000e+002  1,43059e+001  1,57105e+002  1,45000e+002
           785  7,85000e+002  1,43043e+001  1,58036e+002  1,45833e+002
           790  7,90000e+002  1,43031e+001  1,58966e+002  1,46667e+002
           795  7,95000e+002  1,43019e+001  1,59890e+002  1,47500e+002
           800  8,00000e+002  1,43005e+001  1,60830e+002  1,48333e+002
           805  8,05000e+002  1,42989e+001  1,61762e+002  1,49167e+002
           810  8,10000e+002  1,42977e+001  1,62694e+002  1,50000e+002
           815  8,15000e+002  1,42966e+001  1,63631e+002  1,50833e+002
           820  8,20000e+002  1,42952e+001  1,64546e+002  1,51667e+002
           825  8,25000e+002  1,42936e+001  1,65467e+002  1,52500e+002
           830  8,30000e+002  1,42923e+001  1,66401e+002  1,53333e+002
           835  8,35000e+002  1,42907e+001  1,67323e+002  1,54167e+002
           840  8,40000e+002  1,42893e+001  1,68245e+002  1,55000e+002
           845  8,45000e+002  1,42881e+001  1,69182e+002  1,55833e+002
           850  8,50000e+002  1,42870e+001  1,70096e+002  1,56667e+002
           855  8,55000e+002  1,42858e+001  1,71010e+002  1,57500e+002
           860  8,60000e+002  1,42841e+001  1,71938e+002  1,58333e+002
           865  8,65000e+002  1,42829e+001  1,72844e+002  1,59167e+002
           870  8,70000e+002  1,42818e+001  1,73756e+002  1,60000e+002
           875  8,75000e+002  1,42805e+001  1,74677e+002  1,60833e+002
           880  8,80000e+002  1,42789e+001  1,75599e+002  1,61667e+002
           885  8,85000e+002  1,42777e+001  1,76499e+002  1,62500e+002
           890  8,90000e+002  1,42767e+001  1,77412e+002  1,63333e+002
           895  8,95000e+002  1,42757e+001  1,78313e+002  1,64167e+002
           900  9,00000e+002  1,42747e+001  1,79207e+002  1,65000e+002
           905  9,05000e+002  1,42730e+001  1,80106e+002  1,65833e+002
           910  9,10000e+002  1,42717e+001  1,80998e+002  1,66667e+002
           915  9,15000e+002  1,42706e+001  1,81883e+002  1,67500e+002
           920  9,20000e+002  1,42696e+001  1,82794e+002  1,68333e+002
           925  9,25000e+002  1,42687e+001  1,83672e+002  1,69167e+002
           930  9,30000e+002  1,42676e+001  1,84570e+002  1,70000e+002
           935  9,35000e+002  1,42665e+001  1,85473e+002  1,70833e+002
           940  9,40000e+002  1,42658e+001  1,86365e+002  1,71667e+002
           945  9,45000e+002  1,42646e+001  1,87290e+002  1,72500e+002
           950  9,50000e+002  1,42640e+001  1,88222e+002  1,73333e+002
           955  9,55000e+002  1,42629e+001  1,89163e+002  1,74167e+002
           960  9,60000e+002  1,42612e+001  1,90131e+002  1,75000e+002
           965  9,65000e+002  1,42598e+001  1,91117e+002  1,75833e+002
           970  9,70000e+002  1,42587e+001  1,92093e+002  1,76667e+002
           975  9,75000e+002  1,42574e+001  1,93086e+002  1,77500e+002
           980  9,80000e+002  1,42559e+001  1,94058e+002  1,78333e+002
           985  9,85000e+002  1,42549e+001  1,95044e+002  1,79167e+002
           990  9,90000e+002  1,42539e+001  1,96009e+002  1,80000e+002
           995  9,95000e+002  1,42530e+001  1,96969e+002  1,80833e+002
          1000  1,00000e+003  1,42518e+001  1,97934e+002  1,81667e+002
          1005  1,00500e+003  1,42503e+001  1,98891e+002  1,82500e+002
          1010  1,01000e+003  1,42492e+001  1,99835e+002  1,83333e+002
          1015  1,01500e+003  1,42483e+001  2,00782e+002  1,84167e+002
          1020  1,02000e+003  1,42474e+001  2,01738e+002  1,85000e+002
          1025  1,02500e+003  1,42458e+001  2,02683e+002  1,85833e+002
          1030  1,03000e+003  1,42446e+001  2,03630e+002  1,86667e+002
          1035  1,03500e+003  1,42436e+001  2,04554e+002  1,87500e+002
          1040  1,04000e+003  1,42427e+001  2,05502e+002  1,88333e+002
          1045  1,04500e+003  1,42418e+001  2,06448e+002  1,89167e+002
          1050  1,05000e+003  1,42406e+001  2,07370e+002  1,90000e+002
          1055  1,05500e+003  1,42393e+001  2,08310e+002  1,90833e+002
          1060  1,06000e+003  1,42383e+001  2,09247e+002  1,91667e+002
          1065  1,06500e+003  1,42374e+001  2,10193e+002  1,92500e+002
          1070  1,07000e+003  1,42366e+001  2,11118e+002  1,93333e+002
          1075  1,07500e+003  1,42351e+001  2,12049e+002  1,94167e+002
          1080  1,08000e+003  1,42338e+001  2,12981e+002  1,95000e+002
          1085  1,08500e+003  1,42329e+001  2,13895e+002  1,95833e+002
          1090  1,09000e+003  1,42321e+001  2,14844e+002  1,96667e+002
          1095  1,09500e+003  1,42313e+001  2,15765e+002  1,97500e+002
          1100  1,10000e+003  1,42304e+001  2,16704e+002  1,98333e+002
          1105  1,10500e+003  1,42295e+001  2,17622e+002  1,99167e+002
          1110  1,11000e+003  1,42281e+001  2,18538e+002  2,00000e+002
          1115  1,11500e+003  1,42271e+001  2,19471e+002  2,00833e+002
          1120  1,12000e+003  1,42262e+001  2,20393e+002  2,01667e+002
          1125  1,12500e+003  1,42254e+001  2,21324e+002  2,02500e+002
          1130  1,13000e+003  1,42247e+001  2,22238e+002  2,03333e+002
          1135  1,13500e+003  1,42237e+001  2,23162e+002  2,04167e+002
          1140  1,14000e+003  1,42223e+001  2,24079e+002  2,05000e+002
          1145  1,14500e+003  1,42213e+001  2,25003e+002  2,05833e+002
          1150  1,15000e+003  1,42207e+001  2,25922e+002  2,06667e+002
          1155  1,15500e+003  1,42205e+001  2,26853e+002  2,07500e+002
          1160  1,16000e+003  1,42209e+001  2,27815e+002  2,08333e+002
          1165  1,16500e+003  1,42196e+001  2,28749e+002  2,09167e+002
          1170  1,17000e+003  1,42179e+001  2,29666e+002  2,10000e+002
          1175  1,17500e+003  1,42164e+001  2,30589e+002  2,10833e+002
          1180  1,18000e+003  1,42154e+001  2,31508e+002  2,11667e+002
          1185  1,18500e+003  1,42145e+001  2,32432e+002  2,12500e+002
          1190  1,19000e+003  1,42137e+001  2,33343e+002  2,13333e+002
          1195  1,19500e+003  1,42129e+001  2,34261e+002  2,14167e+002
          1200  1,20000e+003  1,42121e+001  2,35162e+002  2,15000e+002
          1205  1,20500e+003  1,42108e+001  2,36080e+002  2,15833e+002
          1210  1,21000e+003  1,42098e+001  2,36985e+002  2,16667e+002
          1215  1,21500e+003  1,42090e+001  2,37908e+002  2,17500e+002
          1220  1,22000e+003  1,42083e+001  2,38819e+002  2,18333e+002
          1225  1,22500e+003  1,42077e+001  2,39737e+002  2,19167e+002
          1230  1,23000e+003  1,42068e+001  2,40651e+002  2,20000e+002
          1235  1,23500e+003  1,42060e+001  2,41569e+002  2,20833e+002
          1240  1,24000e+003  1,42049e+001  2,42477e+002  2,21667e+002
          1245  1,24500e+003  1,42040e+001  2,43385e+002  2,22500e+002
          1250  1,25000e+003  1,42034e+001  2,44294e+002  2,23333e+002
          1255  1,25500e+003  1,42028e+001  2,45198e+002  2,24167e+002
          1260  1,26000e+003  1,42020e+001  2,46106e+002  2,25000e+002
          1265  1,26500e+003  1,42012e+001  2,47019e+002  2,25833e+002
          1270  1,27000e+003  1,42005e+001  2,47922e+002  2,26667e+002
          1275  1,27500e+003  1,41995e+001  2,48845e+002  2,27500e+002
          1280  1,28000e+003  1,41986e+001  2,49734e+002  2,28333e+002
          1285  1,28500e+003  1,41979e+001  2,50656e+002  2,29167e+002
          1290  1,29000e+003  1,41972e+001  2,51559e+002  2,30000e+002
          1295  1,29500e+003  1,41969e+001  2,52467e+002  2,30833e+002
          1300  1,30000e+003  1,41963e+001  2,53373e+002  2,31667e+002
          1305  1,30500e+003  1,41951e+001  2,54277e+002  2,32500e+002
          1310  1,31000e+003  1,41939e+001  2,55177e+002  2,33333e+002
          1315  1,31500e+003  1,41930e+001  2,56070e+002  2,34167e+002
          1320  1,32000e+003  1,41924e+001  2,56984e+002  2,35000e+002
          1325  1,32500e+003  1,41918e+001  2,57872e+002  2,35833e+002
          1330  1,33000e+003  1,41912e+001  2,58774e+002  2,36667e+002
          1335  1,33500e+003  1,41904e+001  2,59670e+002  2,37500e+002
          1340  1,34000e+003  1,41893e+001  2,60580e+002  2,38333e+002
          1345  1,34500e+003  1,41885e+001  2,61477e+002  2,39167e+002
          1350  1,35000e+003  1,41879e+001  2,62364e+002  2,40000e+002
          1355  1,35500e+003  1,41873e+001  2,63261e+002  2,40833e+002
          1360  1,36000e+003  1,41868e+001  2,64158e+002  2,41667e+002
          1365  1,36500e+003  1,41859e+001  2,65041e+002  2,42500e+002
          1370  1,37000e+003  1,41848e+001  2,65940e+002  2,43333e+002
          1375  1,37500e+003  1,41841e+001  2,66835e+002  2,44167e+002
          1380  1,38000e+003  1,41834e+001  2,67731e+002  2,45000e+002
          1385  1,38500e+003  1,41830e+001  2,68627e+002  2,45833e+002
          1390  1,39000e+003  1,41825e+001  2,69522e+002  2,46667e+002
          1395  1,39500e+003  1,41817e+001  2,70423e+002  2,47500e+002
          1400  1,40000e+003  1,41805e+001  2,71301e+002  2,48333e+002
          1405  1,40500e+003  1,41798e+001  2,72205e+002  2,49167e+002
          1410  1,41000e+003  1,41793e+001  2,73092e+002  2,50000e+002
          1415  1,41500e+003  1,41788e+001  2,73970e+002  2,50833e+002
          1420  1,42000e+003  1,41778e+001  2,74870e+002  2,51667e+002
          1425  1,42500e+003  1,41768e+001  2,75760e+002  2,52500e+002
          1430  1,43000e+003  1,41764e+001  2,76640e+002  2,53333e+002
          1435  1,43500e+003  1,41759e+001  2,77528e+002  2,54167e+002
          1440  1,44000e+003  1,41754e+001  2,78428e+002  2,55000e+002
          1445  1,44500e+003  1,41743e+001  2,79308e+002  2,55833e+002
          1450  1,45000e+003  1,41732e+001  2,80190e+002  2,56667e+002
          1455  1,45500e+003  1,41726e+001  2,81077e+002  2,57500e+002
          1460  1,46000e+003  1,41719e+001  2,81951e+002  2,58333e+002
          1465  1,46500e+003  1,41713e+001  2,82841e+002  2,59167e+002
          1470  1,47000e+003  1,41703e+001  2,83717e+002  2,60000e+002
          1475  1,47500e+003  1,41695e+001  2,84607e+002  2,60833e+002
          1480  1,48000e+003  1,41689e+001  2,85490e+002  2,61667e+002
          1485  1,48500e+003  1,41677e+001  2,86379e+002  2,62500e+002
          1490  1,49000e+003  1,41670e+001  2,87245e+002  2,63333e+002
          1495  1,49500e+003  1,41665e+001  2,88135e+002  2,64167e+002
          1500  1,50000e+003  1,41660e+001  2,89021e+002  2,65000e+002
          1505  1,50500e+003  1,41648e+001  2,89901e+002  2,65833e+002
          1510  1,51000e+003  1,41641e+001  2,90780e+002  2,66667e+002
          1515  1,51500e+003  1,41636e+001  2,91646e+002  2,67500e+002
          1520  1,52000e+003  1,41630e+001  2,92534e+002  2,68333e+002
          1525  1,52500e+003  1,41625e+001  2,93406e+002  2,69167e+002
          1530  1,53000e+003  1,41615e+001  2,94278e+002  2,70000e+002
          1535  1,53500e+003  1,41607e+001  2,95154e+002  2,70833e+002
          1540  1,54000e+003  1,41602e+001  2,96025e+002  2,71667e+002
          1545  1,54500e+003  1,41598e+001  2,96900e+002  2,72500e+002
          1550  1,55000e+003  1,41587e+001  2,97773e+002  2,73333e+002
          1555  1,55500e+003  1,41579e+001  2,98657e+002  2,74167e+002
          1560  1,56000e+003  1,41574e+001  2,99520e+002  2,75000e+002
          1565  1,56500e+003  1,41567e+001  3,00402e+002  2,75833e+002
          1570  1,57000e+003  1,41556e+001  3,01270e+002  2,76667e+002
          1575  1,57500e+003  1,41550e+001  3,02142e+002  2,77500e+002
          1580  1,58000e+003  1,41544e+001  3,03011e+002  2,78333e+002
          1585  1,58500e+003  1,41537e+001  3,03890e+002  2,79167e+002
          1590  1,59000e+003  1,41528e+001  3,04769e+002  2,80000e+002
          1595  1,59500e+003  1,41522e+001  3,05642e+002  2,80833e+002
          1600  1,60000e+003  1,41517e+001  3,06496e+002  2,81667e+002
          1605  1,60500e+003  1,41507e+001  3,07376e+002  2,82500e+002
          1610  1,61000e+003  1,41499e+001  3,08235e+002  2,83333e+002
          1615  1,61500e+003  1,41494e+001  3,09108e+002  2,84167e+002
          1620  1,62000e+003  1,41486e+001  3,09987e+002  2,85000e+002
          1625  1,62500e+003  1,41477e+001  3,10848e+002  2,85833e+002
          1630  1,63000e+003  1,41472e+001  3,11705e+002  2,86667e+002
          1635  1,63500e+003  1,41464e+001  3,12575e+002  2,87500e+002
          1640  1,64000e+003  1,41454e+001  3,13448e+002  2,88333e+002
          1645  1,64500e+003  1,41452e+001  3,14313e+002  2,89167e+002
          1650  1,65000e+003  1,41446e+001  3,15166e+002  2,90000e+002
          1655  1,65500e+003  1,41435e+001  3,16046e+002  2,90833e+002
          1660  1,66000e+003  1,41428e+001  3,16913e+002  2,91667e+002
          1665  1,66500e+003  1,41420e+001  3,17769e+002  2,92500e+002
          1670  1,67000e+003  1,41411e+001  3,18642e+002  2,93333e+002
          1675  1,67500e+003  1,41405e+001  3,19498e+002  2,94167e+002
          1680  1,68000e+003  1,41396e+001  3,20371e+002  2,95000e+002
          1685  1,68500e+003  1,41387e+001  3,21227e+002  2,95833e+002
          1690  1,69000e+003  1,41382e+001  3,22081e+002  2,96667e+002
          1695  1,69500e+003  1,41373e+001  3,22941e+002  2,97500e+002
          1700  1,70000e+003  1,41365e+001  3,23811e+002  2,98333e+002
          1705  1,70500e+003  1,41357e+001  3,24669e+002  2,99167e+002
          1710  1,71000e+003  1,41348e+001  3,25529e+002  3,00000e+002
          1715  1,71500e+003  1,41340e+001  3,26387e+002  3,00833e+002
          1720  1,72000e+003  1,41330e+001  3,27245e+002  3,01667e+002
          1725  1,72500e+003  1,41326e+001  3,28103e+002  3,02500e+002
          1730  1,73000e+003  1,41317e+001  3,28962e+002  3,03333e+002
          1735  1,73500e+003  1,41308e+001  3,29826e+002  3,04167e+002
          1740  1,74000e+003  1,41305e+001  3,30688e+002  3,05000e+002
          1745  1,74500e+003  1,41296e+001  3,31539e+002  3,05833e+002
          1750  1,75000e+003  1,41288e+001  3,32400e+002  3,06667e+002
          1755  1,75500e+003  1,41277e+001  3,33264e+002  3,07500e+002
          1760  1,76000e+003  1,41270e+001  3,34126e+002  3,08333e+002
          1765  1,76500e+003  1,41261e+001  3,34966e+002  3,09167e+002
          1770  1,77000e+003  1,41253e+001  3,35815e+002  3,10000e+002
          1775  1,77500e+003  1,41243e+001  3,36675e+002  3,10833e+002
          1780  1,78000e+003  1,41233e+001  3,37513e+002  3,11667e+002
          1785  1,78500e+003  1,41224e+001  3,38376e+002  3,12500e+002
          1790  1,79000e+003  1,41219e+001  3,39230e+002  3,13333e+002
          1795  1,79500e+003  1,41208e+001  3,40088e+002  3,14167e+002
          1800  1,80000e+003  1,41199e+001  3,40937e+002  3,15000e+002
          1805  1,80500e+003  1,41191e+001  3,41800e+002  3,15833e+002
          1810  1,81000e+003  1,41181e+001  3,42644e+002  3,16667e+002
          1815  1,81500e+003  1,41172e+001  3,43496e+002  3,17500e+002
          1820  1,82000e+003  1,41164e+001  3,44344e+002  3,18333e+002
          1825  1,82500e+003  1,41154e+001  3,45203e+002  3,19167e+002
          1830  1,83000e+003  1,41145e+001  3,46045e+002  3,20000e+002
          1835  1,83500e+003  1,41135e+001  3,46889e+002  3,20833e+002
          1840  1,84000e+003  1,41124e+001  3,47754e+002  3,21667e+002
          1845  1,84500e+003  1,41116e+001  3,48602e+002  3,22500e+002
          1850  1,85000e+003  1,41107e+001  3,49454e+002  3,23333e+002
          1855  1,85500e+003  1,41096e+001  3,50297e+002  3,24167e+002
          1860  1,86000e+003  1,41086e+001  3,51137e+002  3,25000e+002
          1865  1,86500e+003  1,41075e+001  3,51991e+002  3,25833e+002
          1870  1,87000e+003  1,41064e+001  3,52832e+002  3,26667e+002
          1875  1,87500e+003  1,41053e+001  3,53673e+002  3,27500e+002
          1880  1,88000e+003  1,41043e+001  3,54522e+002  3,28333e+002
          1885  1,88500e+003  1,41033e+001  3,55361e+002  3,29167e+002
          1890  1,89000e+003  1,41022e+001  3,56213e+002  3,30000e+002
          1895  1,89500e+003  1,41011e+001  3,57064e+002  3,30833e+002
          1900  1,90000e+003  1,41001e+001  3,57907e+002  3,31667e+002
          1905  1,90500e+003  1,40995e+001  3,58747e+002  3,32500e+002
          1910  1,91000e+003  1,40981e+001  3,59582e+002  3,33333e+002
          1915  1,91500e+003  1,40970e+001  3,60434e+002  3,34167e+002
          1920  1,92000e+003  1,40961e+001  3,61283e+002  3,35000e+002
          1925  1,92500e+003  1,40949e+001  3,62125e+002  3,35833e+002
          1930  1,93000e+003  1,40939e+001  3,62960e+002  3,36667e+002
          1935  1,93500e+003  1,40928e+001  3,63797e+002  3,37500e+002
          1940  1,94000e+003  1,40916e+001  3,64647e+002  3,38333e+002
          1945  1,94500e+003  1,40906e+001  3,65489e+002  3,39167e+002
          1950  1,95000e+003  1,40895e+001  3,66326e+002  3,40000e+002
          1955  1,95500e+003  1,40883e+001  3,67181e+002  3,40833e+002
          1960  1,96000e+003  1,40874e+001  3,68001e+002  3,41667e+002
          1965  1,96500e+003  1,40860e+001  3,68855e+002  3,42500e+002
          1970  1,97000e+003  1,40849e+001  3,69693e+002  3,43333e+002
          1975  1,97500e+003  1,40839e+001  3,70539e+002  3,44167e+002
          1980  1,98000e+003  1,40828e+001  3,71359e+002  3,45000e+002
          1985  1,98500e+003  1,40818e+001  3,72207e+002  3,45833e+002
          1990  1,99000e+003  1,40808e+001  3,73044e+002  3,46667e+002
          1995  1,99500e+003  1,40796e+001  3,73878e+002  3,47500e+002
          2000  2,00000e+003  1,40784e+001  3,74710e+002  3,48333e+002
          2005  2,00500e+003  1,40774e+001  3,75543e+002  3,49167e+002
          2010  2,01000e+003  1,40764e+001  3,76384e+002  3,50000e+002
          2015  2,01500e+003  1,40753e+001  3,77229e+002  3,50833e+002
          2020  2,02000e+003  1,40743e+001  3,78064e+002  3,51667e+002
          2025  2,02500e+003  1,40733e+001  3,78903e+002  3,52500e+002
          2030  2,03000e+003  1,40721e+001  3,79732e+002  3,53333e+002
          2035  2,03500e+003  1,40708e+001  3,80582e+002  3,54167e+002
          2040  2,04000e+003  1,40697e+001  3,81420e+002  3,55000e+002
          2045  2,04500e+003  1,40687e+001  3,82249e+002  3,55833e+002
          2050  2,05000e+003  1,40677e+001  3,83091e+002  3,56667e+002
          2055  2,05500e+003  1,40670e+001  3,83931e+002  3,57500e+002
          2060  2,06000e+003  1,40660e+001  3,84765e+002  3,58333e+002
          2065  2,06500e+003  1,40648e+001  3,85582e+002  3,59167e+002
          2070  2,07000e+003  1,40641e+001  3,86422e+002  3,60000e+002
          2075  2,07500e+003  1,40630e+001  3,87258e+002  3,60833e+002
          2080  2,08000e+003  1,40618e+001  3,88086e+002  3,61667e+002
          2085  2,08500e+003  1,40610e+001  3,88911e+002  3,62500e+002
          2090  2,09000e+003  1,40598e+001  3,89740e+002  3,63333e+002
          2095  2,09500e+003  1,40587e+001  3,90583e+002  3,64167e+002
          2100  2,10000e+003  1,40575e+001  3,91409e+002  3,65000e+002
          2105  2,10500e+003  1,40565e+001  3,92232e+002  3,65833e+002
          2110  2,11000e+003  1,40557e+001  3,93065e+002  3,66667e+002
          2115  2,11500e+003  1,40548e+001  3,93903e+002  3,67500e+002
          2120  2,12000e+003  1,40537e+001  3,94731e+002  3,68333e+002
          2125  2,12500e+003  1,40526e+001  3,95565e+002  3,69167e+002
          2130  2,13000e+003  1,40516e+001  3,96393e+002  3,70000e+002
          2135  2,13500e+003  1,40505e+001  3,97207e+002  3,70833e+002
          2140  2,14000e+003  1,40496e+001  3,98045e+002  3,71667e+002
          2145  2,14500e+003  1,40487e+001  3,98878e+002  3,72500e+002
          2150  2,15000e+003  1,40476e+001  3,99704e+002  3,73333e+002
          2155  2,15500e+003  1,40468e+001  4,00534e+002  3,74167e+002
          2160  2,16000e+003  1,40458e+001  4,01359e+002  3,75000e+002
          2165  2,16500e+003  1,40448e+001  4,02181e+002  3,75833e+002
          2170  2,17000e+003  1,40439e+001  4,03014e+002  3,76667e+002
          2175  2,17500e+003  1,40427e+001  4,03843e+002  3,77500e+002
          2180  2,18000e+003  1,40417e+001  4,04671e+002  3,78333e+002
          2185  2,18500e+003  1,40410e+001  4,05484e+002  3,79167e+002
          2190  2,19000e+003  1,40400e+001  4,06312e+002  3,80000e+002
          2195  2,19500e+003  1,40389e+001  4,07141e+002  3,80833e+002
          2200  2,20000e+003  1,40380e+001  4,07967e+002  3,81667e+002
          2205  2,20500e+003  1,40369e+001  4,08784e+002  3,82500e+002
          2210  2,21000e+003  1,40358e+001  4,09608e+002  3,83333e+002
          2215  2,21500e+003  1,40348e+001  4,10432e+002  3,84167e+002
          2220  2,22000e+003  1,40336e+001  4,11256e+002  3,85000e+002
          2225  2,22500e+003  1,40325e+001  4,12056e+002  3,85833e+002
          2230  2,23000e+003  1,40316e+001  4,12879e+002  3,86667e+002
          2235  2,23500e+003  1,40304e+001  4,13707e+002  3,87500e+002
          2240  2,24000e+003  1,40289e+001  4,14527e+002  3,88333e+002
          2245  2,24500e+003  1,40280e+001  4,15346e+002  3,89167e+002
          2250  2,25000e+003  1,40265e+001  4,16169e+002  3,90000e+002
          2255  2,25500e+003  1,40251e+001  4,16982e+002  3,90833e+002
          2260  2,26000e+003  1,40239e+001  4,17797e+002  3,91667e+002
          2265  2,26500e+003  1,40224e+001  4,18626e+002  3,92500e+002
          2270  2,27000e+003  1,40210e+001  4,19449e+002  3,93333e+002
          2275  2,27500e+003  1,40197e+001  4,20263e+002  3,94167e+002
          2280  2,28000e+003  1,40183e+001  4,21088e+002  3,95000e+002
          2285  2,28500e+003  1,40166e+001  4,21896e+002  3,95833e+002
          2290  2,29000e+003  1,40154e+001  4,22717e+002  3,96667e+002
          2295  2,29500e+003  1,40141e+001  4,23539e+002  3,97500e+002
          2300  2,30000e+003  1,40124e+001  4,24351e+002  3,98333e+002
          2305  2,30500e+003  1,40112e+001  4,25167e+002  3,99167e+002
          2310  2,31000e+003  1,40096e+001  4,25995e+002  4,00000e+002
          2315  2,31500e+003  1,40081e+001  4,26812e+002  4,00833e+002
          2320  2,32000e+003  1,40066e+001  4,27628e+002  4,01667e+002
          2325  2,32500e+003  1,40051e+001  4,28439e+002  4,02500e+002
          2330  2,33000e+003  1,40034e+001  4,29267e+002  4,03333e+002
          2335  2,33500e+003  1,40020e+001  4,30082e+002  4,04167e+002
          2340  2,34000e+003  1,40005e+001  4,30893e+002  4,05000e+002
          2345  2,34500e+003  1,39987e+001  4,31699e+002  4,05833e+002
          2350  2,35000e+003  1,39972e+001  4,32517e+002  4,06667e+002
          2355  2,35500e+003  1,39956e+001  4,33337e+002  4,07500e+002
          2360  2,36000e+003  1,39937e+001  4,34140e+002  4,08333e+002
          2365  2,36500e+003  1,39923e+001  4,34962e+002  4,09167e+002
          2370  2,37000e+003  1,39905e+001  4,35776e+002  4,10000e+002
          2375  2,37500e+003  1,39887e+001  4,36590e+002  4,10833e+002
          2380  2,38000e+003  1,39869e+001  4,37400e+002  4,11667e+002
          2385  2,38500e+003  1,39851e+001  4,38222e+002  4,12500e+002
          2390  2,39000e+003  1,39831e+001  4,39030e+002  4,13333e+002
          2395  2,39500e+003  1,39813e+001  4,39841e+002  4,14167e+002
          2400  2,40000e+003  1,39795e+001  4,40671e+002  4,15000e+002
          2405  2,40500e+003  1,39772e+001  4,41476e+002  4,15833e+002
          2410  2,41000e+003  1,39752e+001  4,42298e+002  4,16667e+002
          2415  2,41500e+003  1,39731e+001  4,43104e+002  4,17500e+002
          2420  2,42000e+003  1,39709e+001  4,43911e+002  4,18333e+002
          2425  2,42500e+003  1,39685e+001  4,44729e+002  4,19167e+002
          2430  2,43000e+003  1,39661e+001  4,45542e+002  4,20000e+002
          2435  2,43500e+003  1,39635e+001  4,46346e+002  4,20833e+002
          2440  2,44000e+003  1,39610e+001  4,47142e+002  4,21667e+002
          2445  2,44500e+003  1,39585e+001  4,47961e+002  4,22500e+002
          2450  2,45000e+003  1,39556e+001  4,48774e+002  4,23333e+002
          2455  2,45500e+003  1,39527e+001  4,49578e+002  4,24167e+002
          2460  2,46000e+003  1,39495e+001  4,50392e+002  4,25000e+002
          2465  2,46500e+003  1,39463e+001  4,51197e+002  4,25833e+002
          2470  2,47000e+003  1,39428e+001  4,52007e+002  4,26667e+002
          2475  2,47500e+003  1,39391e+001  4,52817e+002  4,27500e+002
          2480  2,48000e+003  1,39350e+001  4,53620e+002  4,28333e+002
          2485  2,48500e+003  1,39309e+001  4,54437e+002  4,29167e+002
          2490  2,49000e+003  1,39268e+001  4,55250e+002  4,30000e+002
          2495  2,49500e+003  1,39221e+001  4,56051e+002  4,30833e+002
          2500  2,50000e+003  1,39173e+001  4,56850e+002  4,31667e+002
          2505  2,50500e+003  1,39117e+001  4,57665e+002  4,32500e+002
          2510  2,51000e+003  1,39056e+001  4,58477e+002  4,33333e+002
          2515  2,51500e+003  1,38991e+001  4,59281e+002  4,34167e+002
          2520  2,52000e+003  1,38925e+001  4,60084e+002  4,35000e+002
          2525  2,52500e+003  1,38849e+001  4,60890e+002  4,35833e+002
          2530  2,53000e+003  1,38765e+001  4,61690e+002  4,36667e+002
          2535  2,53500e+003  1,38678e+001  4,62494e+002  4,37500e+002
          2540  2,54000e+003  1,38579e+001  4,63295e+002  4,38333e+002
          2545  2,54500e+003  1,38471e+001  4,64111e+002  4,39167e+002
          2550  2,55000e+003  1,38354e+001  4,64908e+002  4,40000e+002
          2555  2,55500e+003  1,38226e+001  4,65700e+002  4,40833e+002
          2560  2,56000e+003  1,38083e+001  4,66515e+002  4,41667e+002
          2565  2,56500e+003  1,37920e+001  4,67307e+002  4,42500e+002
          2570  2,57000e+003  1,37741e+001  4,68114e+002  4,43333e+002
          2575  2,57500e+003  1,37539e+001  4,68917e+002  4,44167e+002
          2580  2,58000e+003  1,37310e+001  4,69720e+002  4,45000e+002
          2585  2,58500e+003  1,37055e+001  4,70511e+002  4,45833e+002
          2590  2,59000e+003  1,36771e+001  4,71302e+002  4,46667e+002
          2595  2,59500e+003  1,36449e+001  4,72088e+002  4,47500e+002
          2600  2,60000e+003  1,36093e+001  4,72883e+002  4,48333e+002
          2605  2,60500e+003  1,35687e+001  4,73660e+002  4,49167e+002
          2610  2,61000e+003  1,35229e+001  4,74450e+002  4,50000e+002
          2615  2,61500e+003  1,34717e+001  4,75222e+002  4,50833e+002
          2620  2,62000e+003  1,34143e+001  4,76009e+002  4,51667e+002
          2625  2,62500e+003  1,33494e+001  4,76783e+002  4,52500e+002
          2630  2,63000e+003  1,32768e+001  4,77556e+002  4,53333e+002
          2635  2,63500e+003  1,31963e+001  4,78332e+002  4,54167e+002
          2640  2,64000e+003  1,31064e+001  4,79102e+002  4,55000e+002
          2645  2,64500e+003  1,30057e+001  4,79873e+002  4,55833e+002
          2650  2,65000e+003  1,28949e+001  4,80642e+002  4,56667e+002
          2655  2,65500e+003  1,27727e+001  4,81404e+002  4,57500e+002
          2660  2,66000e+003  1,26384e+001  4,82173e+002  4,58333e+002
          2665  2,66500e+003  1,24897e+001  4,82946e+002  4,59167e+002
          2670  2,67000e+003  1,23279e+001  4,83713e+002  4,60000e+002
          2675  2,67500e+003  1,21512e+001  4,84483e+002  4,60833e+002
          2680  2,68000e+003  1,19600e+001  4,85240e+002  4,61667e+002
          2685  2,68500e+003  1,17517e+001  4,86016e+002  4,62500e+002
          2690  2,69000e+003  1,15283e+001  4,86783e+002  4,63333e+002
          2695  2,69500e+003  1,12873e+001  4,87555e+002  4,64167e+002
          2700  2,70000e+003  1,10306e+001  4,88314e+002  4,65000e+002
          2705  2,70500e+003  1,07563e+001  4,89080e+002  4,65833e+002
          2710  2,71000e+003  1,04669e+001  4,89858e+002  4,66667e+002
          2715  2,71500e+003  1,01614e+001  4,90629e+002  4,67500e+002
          2720  2,72000e+003  9,84204e+000  4,91396e+002  4,68333e+002
          2725  2,72500e+003  9,50746e+000  4,92188e+002  4,69167e+002
          2730  2,73000e+003  9,16153e+000  4,92966e+002  4,70000e+002
          2735  2,73500e+003  8,80443e+000  4,93764e+002  4,70833e+002
          2740  2,74000e+003  8,43825e+000  4,94539e+002  4,71667e+002
          2745  2,74500e+003  8,06345e+000  4,95347e+002  4,72500e+002
          2750  2,75000e+003  7,68416e+000  4,96150e+002  4,73333e+002
          2755  2,75500e+003  7,30183e+000  4,96964e+002  4,74167e+002
          2760  2,76000e+003  6,91935e+000  4,97776e+002  4,75000e+002
          2765  2,76500e+003  6,54030e+000  4,98604e+002  4,75833e+002
          2770  2,77000e+003  6,16717e+000  4,99451e+002  4,76667e+002
          2775  2,77500e+003  5,80403e+000  5,00312e+002  4,77500e+002
          2780  2,78000e+003  5,45175e+000  5,01163e+002  4,78333e+002
          2785  2,78500e+003  5,11321e+000  5,02041e+002  4,79167e+002
          2790  2,79000e+003  4,78992e+000  5,02920e+002  4,80000e+002
          2795  2,79500e+003  4,49275e+000  5,03809e+002  4,80833e+002
          2800  2,80000e+003  4,22341e+000  5,04708e+002  4,81667e+002
          2805  2,80500e+003  3,98704e+000  5,05626e+002  4,82500e+002
          2810  2,81000e+003  3,78091e+000  5,06529e+002  4,83333e+002
          2815  2,81500e+003  3,60926e+000  5,07430e+002  4,84167e+002
          2820  2,82000e+003  3,46631e+000  5,08338e+002  4,85000e+002
          2825  2,82500e+003  3,35366e+000  5,09246e+002  4,85833e+002
          2830  2,83000e+003  3,26701e+000  5,10134e+002  4,86667e+002
          2835  2,83500e+003  3,20462e+000  5,11011e+002  4,87500e+002
          2840  2,84000e+003  3,16171e+000  5,11899e+002  4,88333e+002
          2845  2,84500e+003  3,13211e+000  5,12756e+002  4,89167e+002
          2850  2,85000e+003  3,11021e+000  5,13612e+002  4,90000e+002
          2855  2,85500e+003  3,09327e+000  5,14458e+002  4,90833e+002
          2860  2,86000e+003  3,08000e+000  5,15310e+002  4,91667e+002
          2865  2,86500e+003  3,07003e+000  5,16138e+002  4,92500e+002
          2870  2,87000e+003  3,06146e+000  5,16965e+002  4,93333e+002
          2875  2,87500e+003  3,05419e+000  5,17797e+002  4,94167e+002
          2880  2,88000e+003  3,04813e+000  5,18621e+002  4,95000e+002
          2885  2,88500e+003  3,04387e+000  5,19449e+002  4,95833e+002
          2890  2,89000e+003  3,03975e+000  5,20270e+002  4,96667e+002
          2895  2,89500e+003  3,03589e+000  5,21081e+002  4,97500e+002
          2900  2,90000e+003  3,03282e+000  5,21900e+002  4,98333e+002
          2905  2,90500e+003  3,03019e+000  5,22721e+002  4,99167e+002
          2910  2,91000e+003  3,02759e+000  5,23538e+002  5,00000e+002
          2915  2,91500e+003  3,02523e+000  5,24354e+002  5,00833e+002
          2920  2,92000e+003  3,02329e+000  5,25164e+002  5,01667e+002
          2925  2,92500e+003  3,02141e+000  5,25971e+002  5,02500e+002
          2930  2,93000e+003  3,01984e+000  5,26778e+002  5,03333e+002
          2935  2,93500e+003  3,01853e+000  5,27598e+002  5,04167e+002
          2940  2,94000e+003  3,01741e+000  5,28404e+002  5,05000e+002
          2945  2,94500e+003  3,01596e+000  5,29222e+002  5,05833e+002
          2950  2,95000e+003  3,01489e+000  5,30034e+002  5,06667e+002
          2955  2,95500e+003  3,01412e+000  5,30840e+002  5,07500e+002
          2960  2,96000e+003  3,01318e+000  5,31665e+002  5,08333e+002
          2965  2,96500e+003  3,01210e+000  5,32470e+002  5,09167e+002
          2970  2,97000e+003  3,01127e+000  5,33278e+002  5,10000e+002
          2975  2,97500e+003  3,01089e+000  5,34073e+002  5,10833e+002
          2980  2,98000e+003  3,00986e+000  5,34897e+002  5,11667e+002
          2985  2,98500e+003  3,00917e+000  5,35718e+002  5,12500e+002
          2990  2,99000e+003  3,00900e+000  5,36533e+002  5,13333e+002
          2995  2,99500e+003  3,00814e+000  5,37340e+002  5,14167e+002
          3000  3,00000e+003  3,00731e+000  5,38150e+002  5,15000e+002
          3005  3,00500e+003  3,00705e+000  5,38958e+002  5,15833e+002
          3010  3,01000e+003  3,00652e+000  5,39766e+002  5,16667e+002
          3015  3,01500e+003  3,00632e+000  5,40589e+002  5,17500e+002
          3020  3,02000e+003  3,00546e+000  5,41389e+002  5,18333e+002
          3025  3,02500e+003  3,00512e+000  5,42195e+002  5,19167e+002
          3030  3,03000e+003  3,00495e+000  5,42995e+002  5,20000e+002
          3035  3,03500e+003  3,00439e+000  5,43803e+002  5,20833e+002
          3040  3,04000e+003  3,00343e+000  5,44630e+002  5,21667e+002
          3045  3,04500e+003  3,00310e+000  5,45428e+002  5,22500e+002
          3050  3,05000e+003  3,00308e+000  5,46235e+002  5,23333e+002
          3055  3,05500e+003  3,00242e+000  5,47052e+002  5,24167e+002
          3060  3,06000e+003  3,00209e+000  5,47848e+002  5,25000e+002
          3065  3,06500e+003  3,00203e+000  5,48667e+002  5,25833e+002
          3070  3,07000e+003  3,00180e+000  5,49472e+002  5,26667e+002
          3075  3,07500e+003  3,00136e+000  5,50284e+002  5,27500e+002
          3080  3,08000e+003  3,00075e+000  5,51086e+002  5,28333e+002
          3085  3,08500e+003  3,00016e+000  5,51893e+002  5,29167e+002
          3090  3,09000e+003  2,99973e+000  5,52704e+002  5,30000e+002
          3095  3,09500e+003  2,99928e+000  5,53506e+002  5,30833e+002
          3100  3,10000e+003  2,99907e+000  5,54309e+002  5,31667e+002
          3105  3,10500e+003  2,99888e+000  5,55116e+002  5,32500e+002
          3110  3,11000e+003  2,99845e+000  5,55920e+002  5,33333e+002
          3115  3,11500e+003  2,99813e+000  5,56732e+002  5,34167e+002
          3120  3,12000e+003  2,99803e+000  5,57544e+002  5,35000e+002
          3125  3,12500e+003  2,99744e+000  5,58345e+002  5,35833e+002
          3130  3,13000e+003  2,99650e+000  5,59152e+002  5,36667e+002
          3135  3,13500e+003  2,99612e+000  5,59954e+002  5,37500e+002
          3140  3,14000e+003  2,99603e+000  5,60764e+002  5,38333e+002
          3145  3,14500e+003  2,99580e+000  5,61570e+002  5,39167e+002
          3150  3,15000e+003  2,99524e+000  5,62377e+002  5,40000e+002
          3155  3,15500e+003  2,99438e+000  5,63183e+002  5,40833e+002
          3160  3,16000e+003  2,99398e+000  5,63979e+002  5,41667e+002
          3165  3,16500e+003  2,99355e+000  5,64782e+002  5,42500e+002
          3170  3,17000e+003  2,99319e+000  5,65594e+002  5,43333e+002
          3175  3,17500e+003  2,99306e+000  5,66406e+002  5,44167e+002
          3180  3,18000e+003  2,99280e+000  5,67198e+002  5,45000e+002
          3185  3,18500e+003  2,99192e+000  5,68007e+002  5,45833e+002
          3190  3,19000e+003  2,99127e+000  5,68817e+002  5,46667e+002
          3195  3,19500e+003  2,99105e+000  5,69609e+002  5,47500e+002
          3200  3,20000e+003  2,99097e+000  5,70424e+002  5,48333e+002
          3205  3,20500e+003  2,99061e+000  5,71218e+002  5,49167e+002
          3210  3,21000e+003  2,99017e+000  5,72039e+002  5,50000e+002
          3215  3,21500e+003  2,98945e+000  5,72838e+002  5,50833e+002
          3220  3,22000e+003  2,98896e+000  5,73644e+002  5,51667e+002
          3225  3,22500e+003  2,98840e+000  5,74458e+002  5,52500e+002
          3230  3,23000e+003  2,98809e+000  5,75260e+002  5,53333e+002
          3235  3,23500e+003  2,98802e+000  5,76075e+002  5,54167e+002
          3240  3,24000e+003  2,98788e+000  5,76876e+002  5,55000e+002
          3245  3,24500e+003  2,98736e+000  5,77680e+002  5,55833e+002
          3250  3,25000e+003  2,98692e+000  5,78490e+002  5,56667e+002
          3255  3,25500e+003  2,98655e+000  5,79300e+002  5,57500e+002
          3260  3,26000e+003  2,98598e+000  5,80099e+002  5,58333e+002
          3265  3,26500e+003  2,98545e+000  5,80903e+002  5,59167e+002
          3270  3,27000e+003  2,98513e+000  5,81704e+002  5,60000e+002
          3275  3,27500e+003  2,98458e+000  5,82515e+002  5,60833e+002
          3280  3,28000e+003  2,98402e+000  5,83304e+002  5,61667e+002
          3285  3,28500e+003  2,98363e+000  5,84111e+002  5,62500e+002
          3290  3,29000e+003  2,98321e+000  5,84902e+002  5,63333e+002
          3295  3,29500e+003  2,98283e+000  5,85697e+002  5,64167e+002
          3300  3,30000e+003  2,98213e+000  5,86490e+002  5,65000e+002
          3305  3,30500e+003  2,98156e+000  5,87287e+002  5,65833e+002
          3310  3,31000e+003  2,98106e+000  5,88084e+002  5,66667e+002
          3315  3,31500e+003  2,98033e+000  5,88871e+002  5,67500e+002
          3320  3,32000e+003  2,97996e+000  5,89671e+002  5,68333e+002
          3325  3,32500e+003  2,97954e+000  5,90463e+002  5,69167e+002
          3330  3,33000e+003  2,97915e+000  5,91251e+002  5,70000e+002
          3335  3,33500e+003  2,97846e+000  5,92059e+002  5,70833e+002
          3340  3,34000e+003  2,97793e+000  5,92847e+002  5,71667e+002
          3345  3,34500e+003  2,97742e+000  5,93639e+002  5,72500e+002
          3350  3,35000e+003  2,97652e+000  5,94431e+002  5,73333e+002
          3355  3,35500e+003  2,97610e+000  5,95228e+002  5,74167e+002
          3360  3,36000e+003  2,97590e+000  5,96019e+002  5,75000e+002
          3365  3,36500e+003  2,97520e+000  5,96810e+002  5,75833e+002
          3370  3,37000e+003  2,97432e+000  5,97613e+002  5,76667e+002
          3375  3,37500e+003  2,97401e+000  5,98404e+002  5,77500e+002
          3380  3,38000e+003  2,97331e+000  5,99197e+002  5,78333e+002
          3385  3,38500e+003  2,97236e+000  5,99996e+002  5,79167e+002
          3390  3,39000e+003  2,97204e+000  6,00788e+002  5,80000e+002
          3395  3,39500e+003  2,97138e+000  6,01577e+002  5,80833e+002
          3400  3,40000e+003  2,97045e+000  6,02376e+002  5,81667e+002
          3405  3,40500e+003  2,96944e+000  6,03165e+002  5,82500e+002
          3410  3,41000e+003  2,96886e+000  6,03963e+002  5,83333e+002
          3415  3,41500e+003  2,96816e+000  6,04747e+002  5,84167e+002
          3420  3,42000e+003  2,96794e+000  6,05530e+002  5,85000e+002
          3425  3,42500e+003  2,96703e+000  6,06336e+002  5,85833e+002
          3430  3,43000e+003  2,96627e+000  6,07129e+002  5,86667e+002
          3435  3,43500e+003  2,96579e+000  6,07925e+002  5,87500e+002
          3440  3,44000e+003  2,96495e+000  6,08699e+002  5,88333e+002
          3445  3,44500e+003  2,96427e+000  6,09493e+002  5,89167e+002
          3450  3,45000e+003  2,96359e+000  6,10285e+002  5,90000e+002
          3455  3,45500e+003  2,96311e+000  6,11073e+002  5,90833e+002
          3460  3,46000e+003  2,96294e+000  6,11873e+002  5,91667e+002
          3465  3,46500e+003  2,96217e+000  6,12663e+002  5,92500e+002
          3470  3,47000e+003  2,96132e+000  6,13458e+002  5,93333e+002
          3475  3,47500e+003  2,96104e+000  6,14253e+002  5,94167e+002
          3480  3,48000e+003  2,96033e+000  6,15039e+002  5,95000e+002
          3485  3,48500e+003  2,95949e+000  6,15839e+002  5,95833e+002
          3490  3,49000e+003  2,95865e+000  6,16631e+002  5,96667e+002
          3495  3,49500e+003  2,95804e+000  6,17420e+002  5,97500e+002
          3500  3,50000e+003  2,95773e+000  6,18195e+002  5,98333e+002
          3505  3,50500e+003  2,95673e+000  6,18985e+002  5,99167e+002
          3509  3,50900e+003  2,95606e+000  6,19618e+002  5,99833e+002
QPA - Projet P4 - Groupe B - Caisse, 18.03.2024 12:17:41